"rowNo","type","stim1","stimFormat","ITI","key","keyboard","random","head","body","responseType","responseOptions","pageBreak","fixation","subjectGroup","cursor","required","identity condition","Time","time_block","ITI_ms","ITI_f","ITI_fDuration","timestamp","response","RT","correct","responseCode","browser","version","screenWidth","screenHeight","OS","OS_lang","GMT_timestamp","local_timestamp","trial_file_version","link","calibration","id","age","gender","ethnicity","duration_s"
"6","test","C2_036_DV_036_00",".jpg","800","s","s l","1",NA,NA,NA,NA,NA,"ITI","1","hide",NA,"Match","present","1","801","48","16.69","512740","s","6716","1",NA,"Chrome","120.0.0.0","1920","1080","Windows","en-GB","2024-01-15_11:51:30","2024-01-15_11:51:30","2023-12-13_11:01:32","https://www.testable.org/experiment/14865/146518/start","0.72","KN1","18","woman","South Asian","966.202"
"12","test","C2_291_DV_291_00",".jpg","800","s","s l","1",NA,NA,NA,NA,NA,"ITI","1","hide",NA,"Match","present","1","801","48","16.68","515724","l","2197","0",NA,"Chrome","120.0.0.0","1920","1080","Windows","en-GB","2024-01-15_11:51:30","2024-01-15_11:51:30","2023-12-13_11:01:32","https://www.testable.org/experiment/14865/146518/start","0.72","KN1","18","woman","South Asian","966.202"
"19","test","C2_258_DV_258_00",".jpg","800","s","s l","1",NA,NA,NA,NA,NA,"ITI","1","hide",NA,"Match","present","1","801","48","16.69","522885","s","6370","1",NA,"Chrome","120.0.0.0","1920","1080","Windows","en-GB","2024-01-15_11:51:30","2024-01-15_11:51:30","2023-12-13_11:01:32","https://www.testable.org/experiment/14865/146518/start","0.72","KN1","18","woman","South Asian","966.202"
"50","test","C2_095_DV_229_00",".jpg","800","l","s l","1",NA,NA,NA,NA,NA,"ITI","1","hide",NA,"Mismatch","present","1","801","48","16.69","525420","l","1748","1",NA,"Chrome","120.0.0.0","1920","1080","Windows","en-GB","2024-01-15_11:51:30","2024-01-15_11:51:30","2023-12-13_11:01:32","https://www.testable.org/experiment/14865/146518/start","0.72","KN1","18","woman","South Asian","966.202"
"17","test","DV_004_C2_004_00",".jpg","800","s","s l","1",NA,NA,NA,NA,NA,"ITI","1","hide",NA,"Match","present","1","801","48","16.68","527884","s","1676","1",NA,"Chrome","120.0.0.0","1920","1080","Windows","en-GB","2024-01-15_11:51:30","2024-01-15_11:51:30","2023-12-13_11:01:32","https://www.testable.org/experiment/14865/146518/start","0.72","KN1","18","woman","South Asian","966.202"
"44","test","C2_092_DV_227_00",".jpg","800","l","s l","1",NA,NA,NA,NA,NA,"ITI","1","hide",NA,"Mismatch","present","1","801","48","16.68","530093","l","1416","1",NA,"Chrome","120.0.0.0","1920","1080","Windows","en-GB","2024-01-15_11:51:30","2024-01-15_11:51:30","2023-12-13_11:01:32","https://www.testable.org/experiment/14865/146518/start","0.72","KN1","18","woman","South Asian","966.202"
"8","test","C2_032_DV_032_00",".jpg","800","s","s l","1",NA,NA,NA,NA,NA,"ITI","1","hide",NA,"Match","present","1","801","48","16.68","534260","l","3381","0",NA,"Chrome","120.0.0.0","1920","1080","Windows","en-GB","2024-01-15_11:51:30","2024-01-15_11:51:30","2023-12-13_11:01:32","https://www.testable.org/experiment/14865/146518/start","0.72","KN1","18","woman","South Asian","966.202"
"53","test","DV_129_C2_199_00",".jpg","800","l","s l","1",NA,NA,NA,NA,NA,"ITI","1","hide",NA,"Mismatch","present","1","801","48","16.68","536268","l","1219","1",NA,"Chrome","120.0.0.0","1920","1080","Windows","en-GB","2024-01-15_11:51:30","2024-01-15_11:51:30","2023-12-13_11:01:32","https://www.testable.org/experiment/14865/146518/start","0.72","KN1","18","woman","South Asian","966.202"
"56","test","C2_289_DV_039_00",".jpg","800","l","s l","1",NA,NA,NA,NA,NA,"ITI","1","hide",NA,"Mismatch","present","1","801","48","16.68","538524","l","1457","1",NA,"Chrome","120.0.0.0","1920","1080","Windows","en-GB","2024-01-15_11:51:30","2024-01-15_11:51:30","2023-12-13_11:01:32","https://www.testable.org/experiment/14865/146518/start","0.72","KN1","18","woman","South Asian","966.202"
"33","test","C2_290_DV_290_00",".jpg","800","l","s l","1",NA,NA,NA,NA,NA,"ITI","1","hide",NA,"Match","present","1","801","48","16.68","544325","s","5006","0",NA,"Chrome","120.0.0.0","1920","1080","Windows","en-GB","2024-01-15_11:51:30","2024-01-15_11:51:30","2023-12-13_11:01:32","https://www.testable.org/experiment/14865/146518/start","0.72","KN1","18","woman","South Asian","966.202"
"55","test","DV_299_C2_111_00",".jpg","800","l","s l","1",NA,NA,NA,NA,NA,"ITI","1","hide",NA,"Mismatch","present","1","801","48","16.69","546332","l","1205","1",NA,"Chrome","120.0.0.0","1920","1080","Windows","en-GB","2024-01-15_11:51:30","2024-01-15_11:51:30","2023-12-13_11:01:32","https://www.testable.org/experiment/14865/146518/start","0.72","KN1","18","woman","South Asian","966.202"
"40","test","DV_203_C2_277_00",".jpg","800","l","s l","1",NA,NA,NA,NA,NA,"ITI","1","hide",NA,"Mismatch","present","1","801","48","16.69","549292","l","2164","1",NA,"Chrome","120.0.0.0","1920","1080","Windows","en-GB","2024-01-15_11:51:30","2024-01-15_11:51:30","2023-12-13_11:01:32","https://www.testable.org/experiment/14865/146518/start","0.72","KN1","18","woman","South Asian","966.202"
"24","test","C2_131_DV_131_00",".jpg","800","s","s l","1",NA,NA,NA,NA,NA,"ITI","1","hide",NA,"Match","present","1","801","48","16.68","553412","l","3331","0",NA,"Chrome","120.0.0.0","1920","1080","Windows","en-GB","2024-01-15_11:51:30","2024-01-15_11:51:30","2023-12-13_11:01:32","https://www.testable.org/experiment/14865/146518/start","0.72","KN1","18","woman","South Asian","966.202"
"26","test","C2_260_DV_260_00",".jpg","800","s","s l","1",NA,NA,NA,NA,NA,"ITI","1","hide",NA,"Match","present","1","801","48","16.68","556293","s","2091","1",NA,"Chrome","120.0.0.0","1920","1080","Windows","en-GB","2024-01-15_11:51:30","2024-01-15_11:51:30","2023-12-13_11:01:32","https://www.testable.org/experiment/14865/146518/start","0.72","KN1","18","woman","South Asian","966.202"
"60","test","C2_037_DV_030_00",".jpg","800","l","s l","1",NA,NA,NA,NA,NA,"ITI","1","hide",NA,"Mismatch","present","1","801","48","16.69","558517","l","1429","1",NA,"Chrome","120.0.0.0","1920","1080","Windows","en-GB","2024-01-15_11:51:30","2024-01-15_11:51:30","2023-12-13_11:01:32","https://www.testable.org/experiment/14865/146518/start","0.72","KN1","18","woman","South Asian","966.202"
"45","test","C2_070_DV_128_00",".jpg","800","l","s l","1",NA,NA,NA,NA,NA,"ITI","1","hide",NA,"Mismatch","present","1","801","48","16.69","561036","l","1730","1",NA,"Chrome","120.0.0.0","1920","1080","Windows","en-GB","2024-01-15_11:51:30","2024-01-15_11:51:30","2023-12-13_11:01:32","https://www.testable.org/experiment/14865/146518/start","0.72","KN1","18","woman","South Asian","966.202"
"28","test","DV_200_C2_200_00",".jpg","800","s","s l","1",NA,NA,NA,NA,NA,"ITI","1","hide",NA,"Match","present","1","801","48","16.68","565133","s","3307","1",NA,"Chrome","120.0.0.0","1920","1080","Windows","en-GB","2024-01-15_11:51:30","2024-01-15_11:51:30","2023-12-13_11:01:32","https://www.testable.org/experiment/14865/146518/start","0.72","KN1","18","woman","South Asian","966.202"
"27","test","C2_105_DV_105_00",".jpg","800","s","s l","1",NA,NA,NA,NA,NA,"ITI","1","hide",NA,"Match","present","1","801","48","16.68","569692","s","3762","1",NA,"Chrome","120.0.0.0","1920","1080","Windows","en-GB","2024-01-15_11:51:30","2024-01-15_11:51:30","2023-12-13_11:01:32","https://www.testable.org/experiment/14865/146518/start","0.72","KN1","18","woman","South Asian","966.202"
"20","test","C2_146_DV_146_00",".jpg","800","s","s l","1",NA,NA,NA,NA,NA,"ITI","1","hide",NA,"Match","present","1","801","48","16.68","573917","l","3433","0",NA,"Chrome","120.0.0.0","1920","1080","Windows","en-GB","2024-01-15_11:51:30","2024-01-15_11:51:30","2023-12-13_11:01:32","https://www.testable.org/experiment/14865/146518/start","0.72","KN1","18","woman","South Asian","966.202"
"22","test","C2_181_Dv_181_00",".jpg","800","s","s l","1",NA,NA,NA,NA,NA,"ITI","1","hide",NA,"Match","present","1","801","48","16.68","577789","s","3084","1",NA,"Chrome","120.0.0.0","1920","1080","Windows","en-GB","2024-01-15_11:51:30","2024-01-15_11:51:30","2023-12-13_11:01:32","https://www.testable.org/experiment/14865/146518/start","0.72","KN1","18","woman","South Asian","966.202"
"25","test","DV_190_C2_190_00",".jpg","800","s","s l","1",NA,NA,NA,NA,NA,"ITI","1","hide",NA,"Match","present","1","801","48","16.68","583125","s","4549","1",NA,"Chrome","120.0.0.0","1920","1080","Windows","en-GB","2024-01-15_11:51:30","2024-01-15_11:51:30","2023-12-13_11:01:32","https://www.testable.org/experiment/14865/146518/start","0.72","KN1","18","woman","South Asian","966.202"
"34","test","DV_059_C2_055_00",".jpg","800","l","s l","1",NA,NA,NA,NA,NA,"ITI","1","hide",NA,"Mismatch","present","1","801","48","16.68","585317","l","1403","1",NA,"Chrome","120.0.0.0","1920","1080","Windows","en-GB","2024-01-15_11:51:30","2024-01-15_11:51:30","2023-12-13_11:01:32","https://www.testable.org/experiment/14865/146518/start","0.72","KN1","18","woman","South Asian","966.202"
"31","test","DV_166_C2_166_00",".jpg","800","s","s l","1",NA,NA,NA,NA,NA,"ITI","1","hide",NA,"Match","present","1","801","48","16.69","588941","s","2823","1",NA,"Chrome","120.0.0.0","1920","1080","Windows","en-GB","2024-01-15_11:51:30","2024-01-15_11:51:30","2023-12-13_11:01:32","https://www.testable.org/experiment/14865/146518/start","0.72","KN1","18","woman","South Asian","966.202"
"11","test","C2_294_DV_294_00",".jpg","800","s","s l","1",NA,NA,NA,NA,NA,"ITI","1","hide",NA,"Match","present","1","801","48","16.69","591669","s","1932","1",NA,"Chrome","120.0.0.0","1920","1080","Windows","en-GB","2024-01-15_11:51:30","2024-01-15_11:51:30","2023-12-13_11:01:32","https://www.testable.org/experiment/14865/146518/start","0.72","KN1","18","woman","South Asian","966.202"
"30","test","C2_071_DV_071_00",".jpg","800","s","s l","1",NA,NA,NA,NA,NA,"ITI","1","hide",NA,"Match","present","1","801","48","16.68","595181","s","2724","1",NA,"Chrome","120.0.0.0","1920","1080","Windows","en-GB","2024-01-15_11:51:30","2024-01-15_11:51:30","2023-12-13_11:01:32","https://www.testable.org/experiment/14865/146518/start","0.72","KN1","18","woman","South Asian","966.202"
"29","test","DV_008_C2_008_00",".jpg","800","s","s l","1",NA,NA,NA,NA,NA,"ITI","1","hide",NA,"Match","present","1","801","48","16.68","601901","s","5924","1",NA,"Chrome","120.0.0.0","1920","1080","Windows","en-GB","2024-01-15_11:51:30","2024-01-15_11:51:30","2023-12-13_11:01:32","https://www.testable.org/experiment/14865/146518/start","0.72","KN1","18","woman","South Asian","966.202"
"23","test","DV_062_C2_062_00",".jpg","800","s","s l","1",NA,NA,NA,NA,NA,"ITI","1","hide",NA,"Match","present","1","801","48","16.68","604821","s","2120","1",NA,"Chrome","120.0.0.0","1920","1080","Windows","en-GB","2024-01-15_11:51:30","2024-01-15_11:51:30","2023-12-13_11:01:32","https://www.testable.org/experiment/14865/146518/start","0.72","KN1","18","woman","South Asian","966.202"
"59","test","DV_078_C2_125_00",".jpg","800","l","s l","1",NA,NA,NA,NA,NA,"ITI","1","hide",NA,"Mismatch","present","1","801","48","16.69","608245","l","2625","1",NA,"Chrome","120.0.0.0","1920","1080","Windows","en-GB","2024-01-15_11:51:30","2024-01-15_11:51:30","2023-12-13_11:01:32","https://www.testable.org/experiment/14865/146518/start","0.72","KN1","18","woman","South Asian","966.202"
"36","test","C2_012_DV_245_00",".jpg","800","l","s l","1",NA,NA,NA,NA,NA,"ITI","1","hide",NA,"Mismatch","present","1","801","48","16.68","611669","l","2630","1",NA,"Chrome","120.0.0.0","1920","1080","Windows","en-GB","2024-01-15_11:51:30","2024-01-15_11:51:30","2023-12-13_11:01:32","https://www.testable.org/experiment/14865/146518/start","0.72","KN1","18","woman","South Asian","966.202"
"5","test","C2_080_DV_080_00",".jpg","800","s","s l","1",NA,NA,NA,NA,NA,"ITI","1","hide",NA,"Match","present","1","801","48","16.68","614092","s","1632","1",NA,"Chrome","120.0.0.0","1920","1080","Windows","en-GB","2024-01-15_11:51:30","2024-01-15_11:51:30","2023-12-13_11:01:32","https://www.testable.org/experiment/14865/146518/start","0.72","KN1","18","woman","South Asian","966.202"
"16","test","DV_064_C2_064_00",".jpg","800","s","s l","1",NA,NA,NA,NA,NA,"ITI","1","hide",NA,"Match","present","1","801","48","16.68","618077","s","3198","1",NA,"Chrome","120.0.0.0","1920","1080","Windows","en-GB","2024-01-15_11:51:30","2024-01-15_11:51:30","2023-12-13_11:01:32","https://www.testable.org/experiment/14865/146518/start","0.72","KN1","18","woman","South Asian","966.202"
"58","test","DV_303_C2_217_00",".jpg","800","l","s l","1",NA,NA,NA,NA,NA,"ITI","1","hide",NA,"Mismatch","present","1","801","48","16.68","622045","l","3178","1",NA,"Chrome","120.0.0.0","1920","1080","Windows","en-GB","2024-01-15_11:51:30","2024-01-15_11:51:30","2023-12-13_11:01:32","https://www.testable.org/experiment/14865/146518/start","0.72","KN1","18","woman","South Asian","966.202"
"15","test","C2_112_DV_112_00",".jpg","800","s","s l","1",NA,NA,NA,NA,NA,"ITI","1","hide",NA,"Match","present","1","801","48","16.68","626349","s","3512","1",NA,"Chrome","120.0.0.0","1920","1080","Windows","en-GB","2024-01-15_11:51:30","2024-01-15_11:51:30","2023-12-13_11:01:32","https://www.testable.org/experiment/14865/146518/start","0.72","KN1","18","woman","South Asian","966.202"
"13","test","C2_226_DV_226_00",".jpg","800","s","s l","1",NA,NA,NA,NA,NA,"ITI","1","hide",NA,"Match","present","1","801","48","16.68","632245","s","5104","1",NA,"Chrome","120.0.0.0","1920","1080","Windows","en-GB","2024-01-15_11:51:30","2024-01-15_11:51:30","2023-12-13_11:01:32","https://www.testable.org/experiment/14865/146518/start","0.72","KN1","18","woman","South Asian","966.202"
"7","test","C2_053_DV_053_00",".jpg","800","s","s l","1",NA,NA,NA,NA,NA,"ITI","1","hide",NA,"Match","present","1","801","48","16.68","641956","l","8925","0",NA,"Chrome","120.0.0.0","1920","1080","Windows","en-GB","2024-01-15_11:51:30","2024-01-15_11:51:30","2023-12-13_11:01:32","https://www.testable.org/experiment/14865/146518/start","0.72","KN1","18","woman","South Asian","966.202"
"35","test","C2_038_DV_081_00",".jpg","800","l","s l","1",NA,NA,NA,NA,NA,"ITI","1","hide",NA,"Mismatch","present","1","801","48","16.68","645765","l","3008","1",NA,"Chrome","120.0.0.0","1920","1080","Windows","en-GB","2024-01-15_11:51:30","2024-01-15_11:51:30","2023-12-13_11:01:32","https://www.testable.org/experiment/14865/146518/start","0.72","KN1","18","woman","South Asian","966.202"
"49","test","C2_288_DV_255_00",".jpg","800","l","s l","1",NA,NA,NA,NA,NA,"ITI","1","hide",NA,"Mismatch","present","1","801","48","16.69","647964","l","1403","1",NA,"Chrome","120.0.0.0","1920","1080","Windows","en-GB","2024-01-15_11:51:30","2024-01-15_11:51:30","2023-12-13_11:01:32","https://www.testable.org/experiment/14865/146518/start","0.72","KN1","18","woman","South Asian","966.202"
"4","test","DV_002_C2_002_00",".jpg","800","s","s l","1",NA,NA,NA,NA,NA,"ITI","1","hide",NA,"Match","present","1","801","48","16.68","651405","s","2642","1",NA,"Chrome","120.0.0.0","1920","1080","Windows","en-GB","2024-01-15_11:51:30","2024-01-15_11:51:30","2023-12-13_11:01:32","https://www.testable.org/experiment/14865/146518/start","0.72","KN1","18","woman","South Asian","966.202"
"18","test","C2_040_DV_040_00",".jpg","800","s","s l","1",NA,NA,NA,NA,NA,"ITI","1","hide",NA,"Match","present","1","801","48","16.68","657413","s","5214","1",NA,"Chrome","120.0.0.0","1920","1080","Windows","en-GB","2024-01-15_11:51:30","2024-01-15_11:51:30","2023-12-13_11:01:32","https://www.testable.org/experiment/14865/146518/start","0.72","KN1","18","woman","South Asian","966.202"
"61","test","DV_237_C2_297_00",".jpg","800","l","s l","1",NA,NA,NA,NA,NA,"ITI","1","hide",NA,"Mismatch","present","1","801","48","16.68","660101","l","1895","1",NA,"Chrome","120.0.0.0","1920","1080","Windows","en-GB","2024-01-15_11:51:30","2024-01-15_11:51:30","2023-12-13_11:01:32","https://www.testable.org/experiment/14865/146518/start","0.72","KN1","18","woman","South Asian","966.202"
"57","test","C2_051_DV_238_00",".jpg","800","l","s l","1",NA,NA,NA,NA,NA,"ITI","1","hide",NA,"Mismatch","present","1","801","48","16.68","662573","l","1681","1",NA,"Chrome","120.0.0.0","1920","1080","Windows","en-GB","2024-01-15_11:51:30","2024-01-15_11:51:30","2023-12-13_11:01:32","https://www.testable.org/experiment/14865/146518/start","0.72","KN1","18","woman","South Asian","966.202"
"32","test","C2_140_DV_140_00",".jpg","800","s","s l","1",NA,NA,NA,NA,NA,"ITI","1","hide",NA,"Match","present","1","801","48","16.68","669908","s","6547","1",NA,"Chrome","120.0.0.0","1920","1080","Windows","en-GB","2024-01-15_11:51:30","2024-01-15_11:51:30","2023-12-13_11:01:32","https://www.testable.org/experiment/14865/146518/start","0.72","KN1","18","woman","South Asian","966.202"
"42","test","DV_020_C2_090_00",".jpg","800","l","s l","1",NA,NA,NA,NA,NA,"ITI","1","hide",NA,"Mismatch","present","1","801","48","16.69","680133","l","9433","1",NA,"Chrome","120.0.0.0","1920","1080","Windows","en-GB","2024-01-15_11:51:30","2024-01-15_11:51:30","2023-12-13_11:01:32","https://www.testable.org/experiment/14865/146518/start","0.72","KN1","18","woman","South Asian","966.202"
"14","test","C2_142_DV_142_00",".jpg","800","s","s l","1",NA,NA,NA,NA,NA,"ITI","1","hide",NA,"Match","present","1","801","48","16.68","684309","s","3381","1",NA,"Chrome","120.0.0.0","1920","1080","Windows","en-GB","2024-01-15_11:51:30","2024-01-15_11:51:30","2023-12-13_11:01:32","https://www.testable.org/experiment/14865/146518/start","0.72","KN1","18","woman","South Asian","966.202"
"43","test","C2_222_DV_204_00",".jpg","800","l","s l","1",NA,NA,NA,NA,NA,"ITI","1","hide",NA,"Mismatch","present","1","801","48","16.68","689061","l","3961","1",NA,"Chrome","120.0.0.0","1920","1080","Windows","en-GB","2024-01-15_11:51:30","2024-01-15_11:51:30","2023-12-13_11:01:32","https://www.testable.org/experiment/14865/146518/start","0.72","KN1","18","woman","South Asian","966.202"
"54","test","C2_076_DV_079_00",".jpg","800","l","s l","1",NA,NA,NA,NA,NA,"ITI","1","hide",NA,"Mismatch","present","1","801","48","16.68","693988","l","4135","1",NA,"Chrome","120.0.0.0","1920","1080","Windows","en-GB","2024-01-15_11:51:30","2024-01-15_11:51:30","2023-12-13_11:01:32","https://www.testable.org/experiment/14865/146518/start","0.72","KN1","18","woman","South Asian","966.202"
"47","test","DV_067_C2_057_00",".jpg","800","l","s l","1",NA,NA,NA,NA,NA,"ITI","1","hide",NA,"Mismatch","present","1","801","48","16.68","709005","l","14230","1",NA,"Chrome","120.0.0.0","1920","1080","Windows","en-GB","2024-01-15_11:51:30","2024-01-15_11:51:30","2023-12-13_11:01:32","https://www.testable.org/experiment/14865/146518/start","0.72","KN1","18","woman","South Asian","966.202"
"21","test","C2_271_DV_271_00",".jpg","800","s","s l","1",NA,NA,NA,NA,NA,"ITI","1","hide",NA,"Match","present","1","801","48","16.69","711676","s","1885","1",NA,"Chrome","120.0.0.0","1920","1080","Windows","en-GB","2024-01-15_11:51:30","2024-01-15_11:51:30","2023-12-13_11:01:32","https://www.testable.org/experiment/14865/146518/start","0.72","KN1","18","woman","South Asian","966.202"
"37","test","C2_035_DV_019_00",".jpg","800","l","s l","1",NA,NA,NA,NA,NA,"ITI","1","hide",NA,"Mismatch","present","1","801","48","16.68","719741","l","7265","1",NA,"Chrome","120.0.0.0","1920","1080","Windows","en-GB","2024-01-15_11:51:30","2024-01-15_11:51:30","2023-12-13_11:01:32","https://www.testable.org/experiment/14865/146518/start","0.72","KN1","18","woman","South Asian","966.202"
"51","test","DV_007_C2_098_00",".jpg","800","l","s l","1",NA,NA,NA,NA,NA,"ITI","1","hide",NA,"Mismatch","present","1","801","48","16.69","725117","l","4582","1",NA,"Chrome","120.0.0.0","1920","1080","Windows","en-GB","2024-01-15_11:51:30","2024-01-15_11:51:30","2023-12-13_11:01:32","https://www.testable.org/experiment/14865/146518/start","0.72","KN1","18","woman","South Asian","966.202"
"39","test","C2_179_DV_021_00",".jpg","800","l","s l","1",NA,NA,NA,NA,NA,"ITI","1","hide",NA,"Mismatch","present","1","801","48","16.68","727789","l","1883","1",NA,"Chrome","120.0.0.0","1920","1080","Windows","en-GB","2024-01-15_11:51:30","2024-01-15_11:51:30","2023-12-13_11:01:32","https://www.testable.org/experiment/14865/146518/start","0.72","KN1","18","woman","South Asian","966.202"
"62","test","C2_077_DV_133_00",".jpg","800","l","s l","1",NA,NA,NA,NA,NA,"ITI","1","hide",NA,"Mismatch","present","1","801","48","16.68","731245","s","2669","0",NA,"Chrome","120.0.0.0","1920","1080","Windows","en-GB","2024-01-15_11:51:30","2024-01-15_11:51:30","2023-12-13_11:01:32","https://www.testable.org/experiment/14865/146518/start","0.72","KN1","18","woman","South Asian","966.202"
"63","test","DV_013_C2_235_00",".jpg","800","l","s l","1",NA,NA,NA,NA,NA,"ITI","1","hide",NA,"Mismatch","present","1","801","48","16.68","733852","l","1807","1",NA,"Chrome","120.0.0.0","1920","1080","Windows","en-GB","2024-01-15_11:51:30","2024-01-15_11:51:30","2023-12-13_11:01:32","https://www.testable.org/experiment/14865/146518/start","0.72","KN1","18","woman","South Asian","966.202"
"48","test","C2_023_DV_304_00",".jpg","800","l","s l","1",NA,NA,NA,NA,NA,"ITI","1","hide",NA,"Mismatch","present","1","801","48","16.69","737451","l","2803","1",NA,"Chrome","120.0.0.0","1920","1080","Windows","en-GB","2024-01-15_11:51:30","2024-01-15_11:51:30","2023-12-13_11:01:32","https://www.testable.org/experiment/14865/146518/start","0.72","KN1","18","woman","South Asian","966.202"
"38","test","C2_009_DV_033_00",".jpg","800","l","s l","1",NA,NA,NA,NA,NA,"ITI","1","hide",NA,"Mismatch","present","1","801","48","16.69","740492","s","2241","0",NA,"Chrome","120.0.0.0","1920","1080","Windows","en-GB","2024-01-15_11:51:30","2024-01-15_11:51:30","2023-12-13_11:01:32","https://www.testable.org/experiment/14865/146518/start","0.72","KN1","18","woman","South Asian","966.202"
"46","test","DV_130_C2_253_00",".jpg","800","l","s l","1",NA,NA,NA,NA,NA,"ITI","1","hide",NA,"Mismatch","present","1","801","48","16.68","743756","l","2468","1",NA,"Chrome","120.0.0.0","1920","1080","Windows","en-GB","2024-01-15_11:51:30","2024-01-15_11:51:30","2023-12-13_11:01:32","https://www.testable.org/experiment/14865/146518/start","0.72","KN1","18","woman","South Asian","966.202"
"9","test","C2_182_DV_182_00",".jpg","800","s","s l","1",NA,NA,NA,NA,NA,"ITI","1","hide",NA,"Match","present","1","801","48","16.69","746365","s","1823","1",NA,"Chrome","120.0.0.0","1920","1080","Windows","en-GB","2024-01-15_11:51:30","2024-01-15_11:51:30","2023-12-13_11:01:32","https://www.testable.org/experiment/14865/146518/start","0.72","KN1","18","woman","South Asian","966.202"
"10","test","DV_118_C2_118_00",".jpg","800","s","s l","1",NA,NA,NA,NA,NA,"ITI","1","hide",NA,"Match","present","1","801","48","16.68","748748","s","1587","1",NA,"Chrome","120.0.0.0","1920","1080","Windows","en-GB","2024-01-15_11:51:30","2024-01-15_11:51:30","2023-12-13_11:01:32","https://www.testable.org/experiment/14865/146518/start","0.72","KN1","18","woman","South Asian","966.202"
"41","test","DV_044_C2_240_00",".jpg","800","l","s l","1",NA,NA,NA,NA,NA,"ITI","1","hide",NA,"Mismatch","present","1","801","48","16.68","751277","l","1731","1",NA,"Chrome","120.0.0.0","1920","1080","Windows","en-GB","2024-01-15_11:51:30","2024-01-15_11:51:30","2023-12-13_11:01:32","https://www.testable.org/experiment/14865/146518/start","0.72","KN1","18","woman","South Asian","966.202"
"52","test","C2_174_DV_183_00",".jpg","800","l","s l","1",NA,NA,NA,NA,NA,"ITI","1","hide",NA,"Mismatch","present","1","801","48","16.69","753389","l","1323","1",NA,"Chrome","120.0.0.0","1920","1080","Windows","en-GB","2024-01-15_11:51:30","2024-01-15_11:51:30","2023-12-13_11:01:32","https://www.testable.org/experiment/14865/146518/start","0.72","KN1","18","woman","South Asian","966.202"
"64","form",NA,NA,NA,NA,NA,NA,"How stressed did you feel during the previous task?","-10 being completely relaxed, 0 being neither relaxed nor stressed, and +10 being extremely stressed","slider","-10_10_1","1",NA,"1",NA,"1",NA,"present",NA,"801",NA,NA,"765677","0","11763","0","0","Chrome","120.0.0.0","1920","1080","Windows","en-GB","2024-01-15_11:51:30","2024-01-15_11:51:30","2023-12-13_11:01:32","https://www.testable.org/experiment/14865/146518/start","0.72","KN1","18","woman","South Asian","966.202"
"110","test","DV_114_C2_126_00",".jpg","800","l","s l","2",NA,NA,NA,NA,NA,"ITI","1","hide",NA,"Mismatch","absent","2","801","48","16.69","774565","l","4231","1",NA,"Chrome","120.0.0.0","1920","1080","Windows","en-GB","2024-01-15_11:51:30","2024-01-15_11:51:30","2023-12-13_11:01:32","https://www.testable.org/experiment/14865/146518/start","0.72","KN1","18","woman","South Asian","966.202"
"114","test","DV_208_C2_206_00",".jpg","800","l","s l","2",NA,NA,NA,NA,NA,"ITI","1","hide",NA,"Mismatch","absent","2","801","48","16.68","777243","l","1889","1",NA,"Chrome","120.0.0.0","1920","1080","Windows","en-GB","2024-01-15_11:51:30","2024-01-15_11:51:30","2023-12-13_11:01:32","https://www.testable.org/experiment/14865/146518/start","0.72","KN1","18","woman","South Asian","966.202"
"87","test","DV_100_C2_100_00",".jpg","800","s","s l","2",NA,NA,NA,NA,NA,"ITI","1","hide",NA,"Match","absent","2","801","48","16.69","779916","s","1874","1",NA,"Chrome","120.0.0.0","1920","1080","Windows","en-GB","2024-01-15_11:51:30","2024-01-15_11:51:30","2023-12-13_11:01:32","https://www.testable.org/experiment/14865/146518/start","0.72","KN1","18","woman","South Asian","966.202"
"73","test","DV_167_C2_167_00",".jpg","800","s","s l","2",NA,NA,NA,NA,NA,"ITI","1","hide",NA,"Match","absent","2","801","48","16.68","782092","s","1381","1",NA,"Chrome","120.0.0.0","1920","1080","Windows","en-GB","2024-01-15_11:51:30","2024-01-15_11:51:30","2023-12-13_11:01:32","https://www.testable.org/experiment/14865/146518/start","0.72","KN1","18","woman","South Asian","966.202"
"97","test","DV_091_C2_211_00",".jpg","800","l","s l","2",NA,NA,NA,NA,NA,"ITI","1","hide",NA,"Mismatch","absent","2","801","48","16.68","784116","l","1237","1",NA,"Chrome","120.0.0.0","1920","1080","Windows","en-GB","2024-01-15_11:51:30","2024-01-15_11:51:30","2023-12-13_11:01:32","https://www.testable.org/experiment/14865/146518/start","0.72","KN1","18","woman","South Asian","966.202"
"101","test","DV_024_C2_085_00",".jpg","800","l","s l","2",NA,NA,NA,NA,NA,"ITI","1","hide",NA,"Mismatch","absent","2","801","48","16.68","785948","l","1033","1",NA,"Chrome","120.0.0.0","1920","1080","Windows","en-GB","2024-01-15_11:51:30","2024-01-15_11:51:30","2023-12-13_11:01:32","https://www.testable.org/experiment/14865/146518/start","0.72","KN1","18","woman","South Asian","966.202"
"103","test","DV_295_C2_216_00",".jpg","800","l","s l","2",NA,NA,NA,NA,NA,"ITI","1","hide",NA,"Mismatch","absent","2","801","48","16.68","788052","l","1319","1",NA,"Chrome","120.0.0.0","1920","1080","Windows","en-GB","2024-01-15_11:51:30","2024-01-15_11:51:30","2023-12-13_11:01:32","https://www.testable.org/experiment/14865/146518/start","0.72","KN1","18","woman","South Asian","966.202"
"104","test","DV_143_C2_132_00",".jpg","800","l","s l","2",NA,NA,NA,NA,NA,"ITI","1","hide",NA,"Mismatch","absent","2","801","48","16.69","795253","l","6400","1",NA,"Chrome","120.0.0.0","1920","1080","Windows","en-GB","2024-01-15_11:51:30","2024-01-15_11:51:30","2023-12-13_11:01:32","https://www.testable.org/experiment/14865/146518/start","0.72","KN1","18","woman","South Asian","966.202"
"119","test","DV_154_C2_042_00",".jpg","800","l","s l","2",NA,NA,NA,NA,NA,"ITI","1","hide",NA,"Mismatch","absent","2","801","48","16.68","797349","l","1307","1",NA,"Chrome","120.0.0.0","1920","1080","Windows","en-GB","2024-01-15_11:51:30","2024-01-15_11:51:30","2023-12-13_11:01:32","https://www.testable.org/experiment/14865/146518/start","0.72","KN1","18","woman","South Asian","966.202"
"107","test","C2_171_DV_185_00",".jpg","800","l","s l","2",NA,NA,NA,NA,NA,"ITI","1","hide",NA,"Mismatch","absent","2","801","48","16.68","799484","l","1338","1",NA,"Chrome","120.0.0.0","1920","1080","Windows","en-GB","2024-01-15_11:51:30","2024-01-15_11:51:30","2023-12-13_11:01:32","https://www.testable.org/experiment/14865/146518/start","0.72","KN1","18","woman","South Asian","966.202"
"90","test","DV_147_C2_147_00",".jpg","800","s","s l","2",NA,NA,NA,NA,NA,"ITI","1","hide",NA,"Match","absent","2","801","48","16.68","803197","s","2917","1",NA,"Chrome","120.0.0.0","1920","1080","Windows","en-GB","2024-01-15_11:51:30","2024-01-15_11:51:30","2023-12-13_11:01:32","https://www.testable.org/experiment/14865/146518/start","0.72","KN1","18","woman","South Asian","966.202"
"93","test","C2_194_DV_194_00",".jpg","800","s","s l","2",NA,NA,NA,NA,NA,"ITI","1","hide",NA,"Match","absent","2","801","48","16.68","805461","s","1476","1",NA,"Chrome","120.0.0.0","1920","1080","Windows","en-GB","2024-01-15_11:51:30","2024-01-15_11:51:30","2023-12-13_11:01:32","https://www.testable.org/experiment/14865/146518/start","0.72","KN1","18","woman","South Asian","966.202"
"106","test","C2_011_DV_049_00",".jpg","800","l","s l","2",NA,NA,NA,NA,NA,"ITI","1","hide",NA,"Mismatch","absent","2","801","48","16.69","810205","l","3952","1",NA,"Chrome","120.0.0.0","1920","1080","Windows","en-GB","2024-01-15_11:51:30","2024-01-15_11:51:30","2023-12-13_11:01:32","https://www.testable.org/experiment/14865/146518/start","0.72","KN1","18","woman","South Asian","966.202"
"113","test","C2_261_DV_201_00",".jpg","800","l","s l","2",NA,NA,NA,NA,NA,"ITI","1","hide",NA,"Mismatch","absent","2","801","48","16.68","812717","l","1725","1",NA,"Chrome","120.0.0.0","1920","1080","Windows","en-GB","2024-01-15_11:51:30","2024-01-15_11:51:30","2023-12-13_11:01:32","https://www.testable.org/experiment/14865/146518/start","0.72","KN1","18","woman","South Asian","966.202"
"115","test","DV_215_C2_050_00",".jpg","800","l","s l","2",NA,NA,NA,NA,NA,"ITI","1","hide",NA,"Mismatch","absent","2","801","48","16.68","815084","l","1574","1",NA,"Chrome","120.0.0.0","1920","1080","Windows","en-GB","2024-01-15_11:51:30","2024-01-15_11:51:30","2023-12-13_11:01:32","https://www.testable.org/experiment/14865/146518/start","0.72","KN1","18","woman","South Asian","966.202"
"94","test","C2_257_DV_257_00",".jpg","800","s","s l","2",NA,NA,NA,NA,NA,"ITI","1","hide",NA,"Match","absent","2","801","48","16.69","817427","s","1548","1",NA,"Chrome","120.0.0.0","1920","1080","Windows","en-GB","2024-01-15_11:51:30","2024-01-15_11:51:30","2023-12-13_11:01:32","https://www.testable.org/experiment/14865/146518/start","0.72","KN1","18","woman","South Asian","966.202"
"116","test","DV_219_C2_135_00",".jpg","800","l","s l","2",NA,NA,NA,NA,NA,"ITI","1","hide",NA,"Mismatch","absent","2","801","48","16.68","820164","l","1949","1",NA,"Chrome","120.0.0.0","1920","1080","Windows","en-GB","2024-01-15_11:51:30","2024-01-15_11:51:30","2023-12-13_11:01:32","https://www.testable.org/experiment/14865/146518/start","0.72","KN1","18","woman","South Asian","966.202"
"81","test","C2_207_DV_207_00",".jpg","800","s","s l","2",NA,NA,NA,NA,NA,"ITI","1","hide",NA,"Match","absent","2","801","48","16.69","823597","s","2645","1",NA,"Chrome","120.0.0.0","1920","1080","Windows","en-GB","2024-01-15_11:51:30","2024-01-15_11:51:30","2023-12-13_11:01:32","https://www.testable.org/experiment/14865/146518/start","0.72","KN1","18","woman","South Asian","966.202"
"78","test","C2_155_DV_155_00",".jpg","800","s","s l","2",NA,NA,NA,NA,NA,"ITI","1","hide",NA,"Match","absent","2","801","48","16.68","825724","s","1336","1",NA,"Chrome","120.0.0.0","1920","1080","Windows","en-GB","2024-01-15_11:51:30","2024-01-15_11:51:30","2023-12-13_11:01:32","https://www.testable.org/experiment/14865/146518/start","0.72","KN1","18","woman","South Asian","966.202"
"112","test","DV_097_C2_007_00",".jpg","800","l","s l","2",NA,NA,NA,NA,NA,"ITI","1","hide",NA,"Mismatch","absent","2","801","48","16.68","828116","l","1594","1",NA,"Chrome","120.0.0.0","1920","1080","Windows","en-GB","2024-01-15_11:51:30","2024-01-15_11:51:30","2023-12-13_11:01:32","https://www.testable.org/experiment/14865/146518/start","0.72","KN1","18","woman","South Asian","966.202"
"83","test","C2_256_DV_256_00",".jpg","800","s","s l","2",NA,NA,NA,NA,NA,"ITI","1","hide",NA,"Match","absent","2","801","48","16.69","830748","s","1839","1",NA,"Chrome","120.0.0.0","1920","1080","Windows","en-GB","2024-01-15_11:51:30","2024-01-15_11:51:30","2023-12-13_11:01:32","https://www.testable.org/experiment/14865/146518/start","0.72","KN1","18","woman","South Asian","966.202"
"85","test","DV_137_C2_137_00",".jpg","800","s","s l","2",NA,NA,NA,NA,NA,"ITI","1","hide",NA,"Match","absent","2","801","48","16.68","833525","s","1979","1",NA,"Chrome","120.0.0.0","1920","1080","Windows","en-GB","2024-01-15_11:51:30","2024-01-15_11:51:30","2023-12-13_11:01:32","https://www.testable.org/experiment/14865/146518/start","0.72","KN1","18","woman","South Asian","966.202"
"92","test","DV_027_C2_027_00",".jpg","800","s","s l","2",NA,NA,NA,NA,NA,"ITI","1","hide",NA,"Match","absent","2","801","48","16.68","835541","s","1227","1",NA,"Chrome","120.0.0.0","1920","1080","Windows","en-GB","2024-01-15_11:51:30","2024-01-15_11:51:30","2023-12-13_11:01:32","https://www.testable.org/experiment/14865/146518/start","0.72","KN1","18","woman","South Asian","966.202"
"89","test","DV_089_C2_089_00",".jpg","800","s","s l","2",NA,NA,NA,NA,NA,"ITI","1","hide",NA,"Match","absent","2","801","48","16.68","841971","s","5639","1",NA,"Chrome","120.0.0.0","1920","1080","Windows","en-GB","2024-01-15_11:51:30","2024-01-15_11:51:30","2023-12-13_11:01:32","https://www.testable.org/experiment/14865/146518/start","0.72","KN1","18","woman","South Asian","966.202"
"84","test","DV_127_C2_127_00",".jpg","800","s","s l","2",NA,NA,NA,NA,NA,"ITI","1","hide",NA,"Match","absent","2","801","48","16.68","846588","s","3815","1",NA,"Chrome","120.0.0.0","1920","1080","Windows","en-GB","2024-01-15_11:51:30","2024-01-15_11:51:30","2023-12-13_11:01:32","https://www.testable.org/experiment/14865/146518/start","0.72","KN1","18","woman","South Asian","966.202"
"111","test","C2_218_DV_109_00",".jpg","800","l","s l","2",NA,NA,NA,NA,NA,"ITI","1","hide",NA,"Mismatch","absent","2","801","48","16.69","849300","l","1923","1",NA,"Chrome","120.0.0.0","1920","1080","Windows","en-GB","2024-01-15_11:51:30","2024-01-15_11:51:30","2023-12-13_11:01:32","https://www.testable.org/experiment/14865/146518/start","0.72","KN1","18","woman","South Asian","966.202"
"125","test","C2_242_DV_254_00",".jpg","800","l","s l","2",NA,NA,NA,NA,NA,"ITI","1","hide",NA,"Mismatch","absent","2","801","48","16.68","851828","l","1732","1",NA,"Chrome","120.0.0.0","1920","1080","Windows","en-GB","2024-01-15_11:51:30","2024-01-15_11:51:30","2023-12-13_11:01:32","https://www.testable.org/experiment/14865/146518/start","0.72","KN1","18","woman","South Asian","966.202"
"69","test","C2_045_DV_045_00",".jpg","800","s","s l","2",NA,NA,NA,NA,NA,"ITI","1","hide",NA,"Match","absent","2","801","48","16.68","853860","s","1245","1",NA,"Chrome","120.0.0.0","1920","1080","Windows","en-GB","2024-01-15_11:51:30","2024-01-15_11:51:30","2023-12-13_11:01:32","https://www.testable.org/experiment/14865/146518/start","0.72","KN1","18","woman","South Asian","966.202"
"118","test","C2_108_DV_282_00",".jpg","800","l","s l","2",NA,NA,NA,NA,NA,"ITI","1","hide",NA,"Mismatch","absent","2","801","48","16.68","864789","l","10137","1",NA,"Chrome","120.0.0.0","1920","1080","Windows","en-GB","2024-01-15_11:51:30","2024-01-15_11:51:30","2023-12-13_11:01:32","https://www.testable.org/experiment/14865/146518/start","0.72","KN1","18","woman","South Asian","966.202"
"75","test","DV_103_C2_103_00",".jpg","800","s","s l","2",NA,NA,NA,NA,NA,"ITI","1","hide",NA,"Match","absent","2","801","48","16.69","866692","s","1113","1",NA,"Chrome","120.0.0.0","1920","1080","Windows","en-GB","2024-01-15_11:51:30","2024-01-15_11:51:30","2023-12-13_11:01:32","https://www.testable.org/experiment/14865/146518/start","0.72","KN1","18","woman","South Asian","966.202"
"120","test","DV_231_C2_259_00",".jpg","800","l","s l","2",NA,NA,NA,NA,NA,"ITI","1","hide",NA,"Mismatch","absent","2","801","48","16.68","868796","s","1315","0",NA,"Chrome","120.0.0.0","1920","1080","Windows","en-GB","2024-01-15_11:51:30","2024-01-15_11:51:30","2023-12-13_11:01:32","https://www.testable.org/experiment/14865/146518/start","0.72","KN1","18","woman","South Asian","966.202"
"117","test","DV_170_C2_270_00",".jpg","800","l","s l","2",NA,NA,NA,NA,NA,"ITI","1","hide",NA,"Mismatch","absent","2","801","48","16.69","871692","l","2109","1",NA,"Chrome","120.0.0.0","1920","1080","Windows","en-GB","2024-01-15_11:51:30","2024-01-15_11:51:30","2023-12-13_11:01:32","https://www.testable.org/experiment/14865/146518/start","0.72","KN1","18","woman","South Asian","966.202"
"96","test","C2_075_DV_074_00",".jpg","800","l","s l","2",NA,NA,NA,NA,NA,"ITI","1","hide",NA,"Mismatch","absent","2","801","48","16.69","873828","s","1342","0",NA,"Chrome","120.0.0.0","1920","1080","Windows","en-GB","2024-01-15_11:51:30","2024-01-15_11:51:30","2023-12-13_11:01:32","https://www.testable.org/experiment/14865/146518/start","0.72","KN1","18","woman","South Asian","966.202"
"79","test","C2_247_DV_247_00",".jpg","800","s","s l","2",NA,NA,NA,NA,NA,"ITI","1","hide",NA,"Match","absent","2","801","48","16.68","875717","s","1095","1",NA,"Chrome","120.0.0.0","1920","1080","Windows","en-GB","2024-01-15_11:51:30","2024-01-15_11:51:30","2023-12-13_11:01:32","https://www.testable.org/experiment/14865/146518/start","0.72","KN1","18","woman","South Asian","966.202"
"105","test","DV_178_C2_060_00",".jpg","800","l","s l","2",NA,NA,NA,NA,NA,"ITI","1","hide",NA,"Mismatch","absent","2","801","48","16.68","878212","l","1706","1",NA,"Chrome","120.0.0.0","1920","1080","Windows","en-GB","2024-01-15_11:51:30","2024-01-15_11:51:30","2023-12-13_11:01:32","https://www.testable.org/experiment/14865/146518/start","0.72","KN1","18","woman","South Asian","966.202"
"77","test","C2_172_DV_172_00",".jpg","800","s","s l","2",NA,NA,NA,NA,NA,"ITI","1","hide",NA,"Match","absent","2","801","48","16.68","881988","s","2980","1",NA,"Chrome","120.0.0.0","1920","1080","Windows","en-GB","2024-01-15_11:51:30","2024-01-15_11:51:30","2023-12-13_11:01:32","https://www.testable.org/experiment/14865/146518/start","0.72","KN1","18","woman","South Asian","966.202"
"71","test","C2_293_DV_293_00",".jpg","800","s","s l","2",NA,NA,NA,NA,NA,"ITI","1","hide",NA,"Match","absent","2","801","48","16.69","884893","s","2113","1",NA,"Chrome","120.0.0.0","1920","1080","Windows","en-GB","2024-01-15_11:51:30","2024-01-15_11:51:30","2023-12-13_11:01:32","https://www.testable.org/experiment/14865/146518/start","0.72","KN1","18","woman","South Asian","966.202"
"74","test","DV_087_C2_087_00",".jpg","800","s","s l","2",NA,NA,NA,NA,NA,"ITI","1","hide",NA,"Match","absent","2","801","48","16.69","887245","s","1563","1",NA,"Chrome","120.0.0.0","1920","1080","Windows","en-GB","2024-01-15_11:51:30","2024-01-15_11:51:30","2023-12-13_11:01:32","https://www.testable.org/experiment/14865/146518/start","0.72","KN1","18","woman","South Asian","966.202"
"108","test","C2_123_DV_223_00",".jpg","800","l","s l","2",NA,NA,NA,NA,NA,"ITI","1","hide",NA,"Mismatch","absent","2","801","48","16.69","894963","l","6929","1",NA,"Chrome","120.0.0.0","1920","1080","Windows","en-GB","2024-01-15_11:51:30","2024-01-15_11:51:30","2023-12-13_11:01:32","https://www.testable.org/experiment/14865/146518/start","0.72","KN1","18","woman","South Asian","966.202"
"91","test","C2_157_DV_157_00",".jpg","800","s","s l","2",NA,NA,NA,NA,NA,"ITI","1","hide",NA,"Match","absent","2","801","48","16.69","897317","s","1558","1",NA,"Chrome","120.0.0.0","1920","1080","Windows","en-GB","2024-01-15_11:51:30","2024-01-15_11:51:30","2023-12-13_11:01:32","https://www.testable.org/experiment/14865/146518/start","0.72","KN1","18","woman","South Asian","966.202"
"88","test","C2_153_DV_153_00",".jpg","800","s","s l","2",NA,NA,NA,NA,NA,"ITI","1","hide",NA,"Match","absent","2","801","48","16.69","903452","s","5340","1",NA,"Chrome","120.0.0.0","1920","1080","Windows","en-GB","2024-01-15_11:51:30","2024-01-15_11:51:30","2023-12-13_11:01:32","https://www.testable.org/experiment/14865/146518/start","0.72","KN1","18","woman","South Asian","966.202"
"68","test","C2_014_DV_014_00",".jpg","800","s","s l","2",NA,NA,NA,NA,NA,"ITI","1","hide",NA,"Match","absent","2","801","48","16.68","909325","s","5074","1",NA,"Chrome","120.0.0.0","1920","1080","Windows","en-GB","2024-01-15_11:51:30","2024-01-15_11:51:30","2023-12-13_11:01:32","https://www.testable.org/experiment/14865/146518/start","0.72","KN1","18","woman","South Asian","966.202"
"121","test","C2_139_DV_120_00",".jpg","800","l","s l","2",NA,NA,NA,NA,NA,"ITI","1","hide",NA,"Mismatch","absent","2","801","48","16.68","911548","l","1425","1",NA,"Chrome","120.0.0.0","1920","1080","Windows","en-GB","2024-01-15_11:51:30","2024-01-15_11:51:30","2023-12-13_11:01:32","https://www.testable.org/experiment/14865/146518/start","0.72","KN1","18","woman","South Asian","966.202"
"72","test","C2_152_DV_152_00",".jpg","800","s","s l","2",NA,NA,NA,NA,NA,"ITI","1","hide",NA,"Match","absent","2","801","48","16.68","915164","s","2822","1",NA,"Chrome","120.0.0.0","1920","1080","Windows","en-GB","2024-01-15_11:51:30","2024-01-15_11:51:30","2023-12-13_11:01:32","https://www.testable.org/experiment/14865/146518/start","0.72","KN1","18","woman","South Asian","966.202"
"70","test","C2_302_DV_302_00",".jpg","800","s","s l","2",NA,NA,NA,NA,NA,"ITI","1","hide",NA,"Match","absent","2","801","48","16.69","917372","s","1410","1",NA,"Chrome","120.0.0.0","1920","1080","Windows","en-GB","2024-01-15_11:51:30","2024-01-15_11:51:30","2023-12-13_11:01:32","https://www.testable.org/experiment/14865/146518/start","0.72","KN1","18","woman","South Asian","966.202"
"76","test","C2_034_DV_034_00",".jpg","800","s","s l","2",NA,NA,NA,NA,NA,"ITI","1","hide",NA,"Match","absent","2","801","48","16.68","919861","s","1696","1",NA,"Chrome","120.0.0.0","1920","1080","Windows","en-GB","2024-01-15_11:51:30","2024-01-15_11:51:30","2023-12-13_11:01:32","https://www.testable.org/experiment/14865/146518/start","0.72","KN1","18","woman","South Asian","966.202"
"66","test","C2_113_DV_113_00",".jpg","800","s","s l","2",NA,NA,NA,NA,NA,"ITI","1","hide",NA,"Match","absent","2","801","48","16.68","924940","s","4290","1",NA,"Chrome","120.0.0.0","1920","1080","Windows","en-GB","2024-01-15_11:51:30","2024-01-15_11:51:30","2023-12-13_11:01:32","https://www.testable.org/experiment/14865/146518/start","0.72","KN1","18","woman","South Asian","966.202"
"123","test","C2_205_DV_048_00",".jpg","800","l","s l","2",NA,NA,NA,NA,NA,"ITI","1","hide",NA,"Mismatch","absent","2","801","48","16.68","926884","l","1145","1",NA,"Chrome","120.0.0.0","1920","1080","Windows","en-GB","2024-01-15_11:51:30","2024-01-15_11:51:30","2023-12-13_11:01:32","https://www.testable.org/experiment/14865/146518/start","0.72","KN1","18","woman","South Asian","966.202"
"124","test","C2_265_DV_287_00",".jpg","800","l","s l","2",NA,NA,NA,NA,NA,"ITI","1","hide",NA,"Mismatch","absent","2","801","48","16.68","929620","l","1946","1",NA,"Chrome","120.0.0.0","1920","1080","Windows","en-GB","2024-01-15_11:51:30","2024-01-15_11:51:30","2023-12-13_11:01:32","https://www.testable.org/experiment/14865/146518/start","0.72","KN1","18","woman","South Asian","966.202"
"67","test","DV_015_C2_015_00",".jpg","800","s","s l","2",NA,NA,NA,NA,NA,"ITI","1","hide",NA,"Match","absent","2","801","48","16.68","931492","s","1081","1",NA,"Chrome","120.0.0.0","1920","1080","Windows","en-GB","2024-01-15_11:51:30","2024-01-15_11:51:30","2023-12-13_11:01:32","https://www.testable.org/experiment/14865/146518/start","0.72","KN1","18","woman","South Asian","966.202"
"95","test","C2_243_DV_243_00",".jpg","800","s","s l","2",NA,NA,NA,NA,NA,"ITI","1","hide",NA,"Match","absent","2","801","48","16.68","933780","s","1501","1",NA,"Chrome","120.0.0.0","1920","1080","Windows","en-GB","2024-01-15_11:51:30","2024-01-15_11:51:30","2023-12-13_11:01:32","https://www.testable.org/experiment/14865/146518/start","0.72","KN1","18","woman","South Asian","966.202"
"102","test","C2_099_DV_025_00",".jpg","800","l","s l","2",NA,NA,NA,NA,NA,"ITI","1","hide",NA,"Mismatch","absent","2","801","48","16.69","937836","l","3256","1",NA,"Chrome","120.0.0.0","1920","1080","Windows","en-GB","2024-01-15_11:51:30","2024-01-15_11:51:30","2023-12-13_11:01:32","https://www.testable.org/experiment/14865/146518/start","0.72","KN1","18","woman","South Asian","966.202"
"98","test","C2_003_DV_018_00",".jpg","800","l","s l","2",NA,NA,NA,NA,NA,"ITI","1","hide",NA,"Mismatch","absent","2","801","48","16.69","939964","l","1329","1",NA,"Chrome","120.0.0.0","1920","1080","Windows","en-GB","2024-01-15_11:51:30","2024-01-15_11:51:30","2023-12-13_11:01:32","https://www.testable.org/experiment/14865/146518/start","0.72","KN1","18","woman","South Asian","966.202"
"86","test","DV_141_C2_141_00",".jpg","800","s","s l","2",NA,NA,NA,NA,NA,"ITI","1","hide",NA,"Match","absent","2","801","48","16.68","941709","l","955","0",NA,"Chrome","120.0.0.0","1920","1080","Windows","en-GB","2024-01-15_11:51:30","2024-01-15_11:51:30","2023-12-13_11:01:32","https://www.testable.org/experiment/14865/146518/start","0.72","KN1","18","woman","South Asian","966.202"
"122","test","DV_094_C2_022_00",".jpg","800","l","s l","2",NA,NA,NA,NA,NA,"ITI","1","hide",NA,"Mismatch","absent","2","801","48","16.69","944060","l","1554","1",NA,"Chrome","120.0.0.0","1920","1080","Windows","en-GB","2024-01-15_11:51:30","2024-01-15_11:51:30","2023-12-13_11:01:32","https://www.testable.org/experiment/14865/146518/start","0.72","KN1","18","woman","South Asian","966.202"
"99","test","C2_031_DV_083_00",".jpg","800","l","s l","2",NA,NA,NA,NA,NA,"ITI","1","hide",NA,"Mismatch","absent","2","801","48","16.68","946716","l","1859","1",NA,"Chrome","120.0.0.0","1920","1080","Windows","en-GB","2024-01-15_11:51:30","2024-01-15_11:51:30","2023-12-13_11:01:32","https://www.testable.org/experiment/14865/146518/start","0.72","KN1","18","woman","South Asian","966.202"
"109","test","C2_246_DV_160_00",".jpg","800","l","s l","2",NA,NA,NA,NA,NA,"ITI","1","hide",NA,"Mismatch","absent","2","801","48","16.69","949292","l","1782","1",NA,"Chrome","120.0.0.0","1920","1080","Windows","en-GB","2024-01-15_11:51:30","2024-01-15_11:51:30","2023-12-13_11:01:32","https://www.testable.org/experiment/14865/146518/start","0.72","KN1","18","woman","South Asian","966.202"
"82","test","DV_041_C2_041_00",".jpg","800","s","s l","2",NA,NA,NA,NA,NA,"ITI","1","hide",NA,"Match","absent","2","801","48","16.68","951348","s","1268","1",NA,"Chrome","120.0.0.0","1920","1080","Windows","en-GB","2024-01-15_11:51:30","2024-01-15_11:51:30","2023-12-13_11:01:32","https://www.testable.org/experiment/14865/146518/start","0.72","KN1","18","woman","South Asian","966.202"
"80","test","DV_046_C2_046_00",".jpg","800","s","s l","2",NA,NA,NA,NA,NA,"ITI","1","hide",NA,"Match","absent","2","801","48","16.68","954693","s","2544","1",NA,"Chrome","120.0.0.0","1920","1080","Windows","en-GB","2024-01-15_11:51:30","2024-01-15_11:51:30","2023-12-13_11:01:32","https://www.testable.org/experiment/14865/146518/start","0.72","KN1","18","woman","South Asian","966.202"
"100","test","DV_052_C2_264_00",".jpg","800","l","s l","2",NA,NA,NA,NA,NA,"ITI","1","hide",NA,"Mismatch","absent","2","801","48","16.68","956732","l","1247","1",NA,"Chrome","120.0.0.0","1920","1080","Windows","en-GB","2024-01-15_11:51:30","2024-01-15_11:51:30","2023-12-13_11:01:32","https://www.testable.org/experiment/14865/146518/start","0.72","KN1","18","woman","South Asian","966.202"
"126","form",NA,NA,NA,NA,NA,NA,"How stressed did you feel during the previous task?","-10 being completely relaxed, 0 being neither relaxed nor stressed, and +10 being extremely stressed","slider","-10_10_1","1",NA,"1",NA,NA,NA,"absent","2","801",NA,NA,"961724","0","4478","0","0","Chrome","120.0.0.0","1920","1080","Windows","en-GB","2024-01-15_11:51:30","2024-01-15_11:51:30","2023-12-13_11:01:32","https://www.testable.org/experiment/14865/146518/start","0.72","KN1","18","woman","South Asian","966.202"
